{
	"resourceType": "MedicationRequest",
	"id": "order-ref-contained",
	"contained": [
		{
			"resourceType": "Medication",
			"id": "med",
			"code": {
				"text": "Red Pill"
			},
			"manufacturer": {
				"reference": "#morpheus"
			}
		},
		{
			"resourceType": "Organization",
			"id": "morpheus",
			"name": "Morpheus Co."
		}
	],
	"stage": {
		"coding": [
			{
				"system": "http://hl7.org/fhir/ValueSet/medication-request-stage",
				"code": "proposal"
			}
		]
	},
	"medicationReference": {
		"reference": "#med"
	},
	"patient": {
		"reference": "Patient/0"
	}
}
